
Current (mA), Voltage (mV)
0 0
3.0 -75.8
3.2 -80.56
3.0 -75.8
3.8 -94.74
3.0 -75.8
3.2 -80.76
3.2 -73.66
3.2 -79.26
3.2 -79.36
3.4 -86.42
3.2 -79.96
3.2 -75.56
10.8 1161.36
11.6 1220.72
12.0 1290.4
13.2 1369.44
14.0 1428.8
14.8 1488.16
15.6 1547.52
16.4 1606.88
17.2 1666.24
18.0 1725.6
18.8 1784.96
20.2 1828.84
21.0 1888.2
21.8 1947.56
22.6 2006.92
23.4 2066.28
24.2 2125.64
25.0 2185.0
25.8 2224.36
31.4 2469.88
30.2 2460.84
31.0 2520.2
32.2 2569.24
32.6 2638.92
33.8 2687.96
34.6 2727.32
35.8 2776.36
37.0 2825.4
37.4 2895.08
38.6 2924.12
39.4 2983.48
40.2 3022.84
41.8 3061.56
43.4 3100.28
43.4 3180.28
45.8 3198.36
46.6 3257.72
46.6 3337.72
48.2 3376.44
49.8 3375.16
50.6 3434.52
51.4 3493.88
52.2 3553.24
53.8 3591.96
53.8 3681.96
55.4 3720.68
56.2 3740.04
57.8 3778.76
59.4 3817.48
60.4 3871.68
61.2 3931.04
62.0 3990.4
62.8 4049.76
63.6 4109.12
65.2 4107.84
66.0 4167.2
67.6 4205.92
68.4 4265.28
69.2 4324.64
70.0 4344.0
72.4 4362.08
72.4 4442.08
74.0 4480.8
74.8 4540.16
75.6 4599.52
77.2 4638.24
78.8 4636.96
78.8 4716.96
80.4 4715.68
80.4 4835.68
84.0 4782.8
84.0 4872.8
86.0 4901.2
86.0 4981.2
90.0 4918.0
88.0 5049.6
90.0 5038.0
92.0 5066.4
92.0 5146.4
94.0 5174.8
96.0 5163.2
96.0 5243.2
98.0 5271.6
98.0 5351.6
100.0 5340.0
102.0 5368.4
102.0 5448.4
102.0 5488.4
152.0 6578.4
110.0 5662.0
110.0 5762.0
112.0 5810.4
114.0 5858.8
114.0 5858.8
116.0 5907.2
118.0 5855.6
118.0 5955.6
118.0 6055.6
120.0 6104.0
122.0 6052.4
122.0 6152.4
124.0 6100.8
126.0 6249.2
128.0 6197.6
128.0 6297.6
128.0 6297.6
130.0 6346.0
132.0 6394.4
134.0 6342.8
134.0 6542.8
136.0 6491.2
136.0 6591.2
138.0 6539.6
140.0 6588.0
142.0 6636.4
144.0 6584.8
144.0 6684.8
144.0 6784.8
146.0 6733.2
148.0 6781.6
148.0 6881.6
150.0 6930.0
152.0 6878.4
152.0 6978.4
152.0 6978.4
154.0 7026.8
156.0 7075.2
156.0 7175.2
158.0 7223.6
160.0 7172.0
160.0 7172.0
160.0 7272.0
162.0 7320.4
164.0 7368.8
164.0 7468.8
168.0 7365.6
168.0 7465.6
168.0 7565.6
172.0 7462.4
172.0 7562.4
172.0 7662.4
172.0 7662.4
176.0 7659.2
176.0 7759.2
180.0 7656.0
180.0 7656.0
184.0 7652.8
184.0 7752.8
184.0 7752.8
188.0 7749.6
188.0 7849.6
188.0 7849.6
192.0 7846.4
192.0 7946.4
196.0 7843.2
196.0 7943.2
196.0 8043.2
202.0 7888.4
202.0 7988.4
202.0 8088.4
206.0 7985.2
206.0 8085.2
206.0 8185.2
210.0 8082.0
210.0 8182.0
210.0 8282.0
214.0 8178.8
214.0 8278.8
214.0 8278.8
218.0 8275.6
218.0 8375.6
218.0 8475.6
222.0 8472.4
222.0 8472.4
222.0 8472.4
226.0 8569.2
226.0 8569.2
226.0 8669.2
226.0 8769.2
226.0 8769.2
230.0 8766.0
230.0 8766.0
230.0 8866.0
234.0 8862.8
234.0 8962.8
234.0 8962.8
238.0 8959.6
238.0 9059.6
238.0 9159.6
238.0 9259.6
242.0 9156.4
238.0 9259.6
242.0 9356.4
242.0 9256.4
250.0 9050.0
254.0 9046.8
258.0 9043.6
254.0 9146.8
258.0 9143.6
258.0 9143.6
262.0 9040.4
258.0 9243.6
262.0 9240.4
266.0 9137.2
266.0 9237.2
270.0 9234.0
270.0 9234.0
274.0 9230.8
274.0 9430.8
274.0 9430.8
278.0 9327.6
278.0 9527.6
278.0 9327.6
278.0 9727.6
282.0 9624.4
282.0 9624.4
282.0 9624.4
282.0 9824.4
282.0 9824.4
286.0 9921.2
286.0 9921.2
290.0 9818.0
290.0 10018.0
290.0 10018.0
290.0 10018.0
294.0 10114.8
294.0 10114.8
298.0 9811.6
298.0 10011.6
298.0 10211.6
298.0 10211.6
298.0 10211.6
302.0 10308.4
302.0 10508.4
306.0 10405.2
306.0 10405.2
306.0 10605.2
310.0 10302.0
310.0 10502.0
310.0 10502.0
314.0 10398.8
314.0 10398.8
318.0 10495.6
322.0 10192.4
318.0 10695.6
326.0 10289.2
330.0 10186.0
334.0 10082.8
326.0 10489.2
