
Current (mA), Voltage (mV)
0 0
3.0 -48.2
3.2 -79.06
3.2 -80.56
3.4 -85.12
3.2 -78.76
3.2 -68.36
10.8 -276.64
11.6 710.72
12.0 780.4
10.0 912.0
10.8 971.36
11.6 1030.72
12.0 1100.4
13.2 1139.44
14.0 1188.8
14.8 1268.16
15.6 1327.52
16.8 1376.56
17.6 1435.92
18.4 1495.28
19.6 1544.32
21.0 1588.2
21.8 1627.56
22.6 1686.92
23.4 1746.28
24.2 1805.64
25.4 1854.68
26.2 1914.04
27.4 1943.08
3.2 2617.44
29.0 1951.8
57.0 3229.4
47.4 2777.08
39.0 2493.8
35.8 2276.36
36.2 2466.04
37.8 2524.76
38.6 2504.12
39.8 2573.16
40.6 2652.52
41.8 2721.56
42.6 2800.92
43.8 2769.96
45.0 2839.0
46.2 2808.04
47.0 2987.4
48.2 3056.44
49.0 3035.8
50.2 3104.84
51.4 2973.88
52.2 3053.24
53.4 3222.28
54.6 3191.32
55.4 3270.68
56.2 3250.04
57.4 3419.08
58.2 3398.44
59.8 3557.16
60.8 3531.36
61.6 3510.72
63.2 3569.44
64.4 3738.48
65.2 3717.84
66.0 3797.2
67.2 3766.24
68.4 3835.28
69.6 3904.32
70.4 3983.68
71.6 4052.72
72.8 4021.76
73.6 4101.12
74.4 4080.48
75.6 4149.52
76.4 4128.88
77.2 4208.24
78.8 4266.96
79.6 4346.32
81.2 4305.04
82.8 4363.76
83.6 4543.12
85.2 4601.84
86.0 4581.2
86.8 4660.56
87.6 4639.92
89.2 4698.64
90.0 4778.0
91.6 4836.72
92.4 4816.08
93.2 4895.44
94.0 4974.8
95.6 5033.52
96.4 5012.88
97.2 5092.24
98.8 5050.96
99.6 5130.32
101.4 5183.88
102.2 5163.24
103.0 5342.6
104.6 5301.32
106.2 5360.04
158.4 7213.28
131.8 6199.56
113.4 5574.28
114.2 5753.64
115.8 5612.36
116.6 5791.72
117.4 5771.08
119.0 5829.8
119.8 5909.16
120.6 5988.52
121.4 6067.88
123.0 6026.6
123.8 6005.96
125.4 6164.68
127.0 6123.4
127.8 6102.76
128.6 6182.12
129.4 6261.48
131.0 6220.2
132.6 6278.92
133.4 6358.28
134.2 6437.64
135.8 6496.36
136.6 6575.72
138.2 6634.44
139.0 6613.8
139.8 6593.16
141.6 6646.72
143.2 6705.44
144.8 6764.16
145.6 6843.52
147.2 6802.24
148.0 6981.6
148.8 6860.96
150.4 7019.68
151.2 6999.04
152.0 6978.4
152.8 7057.76
154.4 7116.48
156.0 7275.2
156.8 7254.56
157.6 7233.92
160.0 7372.0
162.0 7220.4
162.0 7420.4
166.0 7317.2
166.0 7417.2
168.0 7465.6
168.0 7465.6
170.0 7514.0
172.0 7462.4
174.0 7610.8
174.0 7610.8
174.0 7610.8
176.0 7659.2
176.0 7759.2
178.0 7907.6
178.0 7907.6
180.0 7856.0
182.0 7904.4
182.0 7904.4
184.0 7952.8
186.0 8101.2
186.0 8001.2
188.0 8049.6
188.0 8149.6
192.0 8146.4
192.0 8146.4
192.0 8346.4
194.0 8294.8
194.0 8294.8
196.0 8343.2
198.0 8491.6
200.0 8440.0
200.0 8540.0
202.0 8488.4
202.0 8588.4
204.0 8536.8
204.0 8736.8
206.0 8585.2
208.0 8633.6
210.0 8682.0
210.0 8782.0
210.0 8882.0
212.0 8930.4
214.0 8878.8
216.0 8827.2
214.0 9078.8
218.0 8975.6
218.0 9075.6
218.0 9075.6
220.0 9224.0
222.0 9272.4
224.0 9220.8
224.0 9220.8
226.0 9269.2
226.0 9269.2
226.0 9369.2
228.0 9517.6
230.0 9466.0
230.0 9466.0
232.0 9414.4
234.0 9562.8
234.0 9562.8
236.0 9611.2
234.0 9662.8
238.0 9759.6
238.0 9759.6
240.0 9908.0
242.0 9856.4
242.0 9856.4
242.0 10056.4
244.0 10004.8
244.0 10204.8
244.0 10204.8
246.0 10153.2
248.0 10301.6
250.0 10250.0
250.0 10250.0
250.0 10450.0
252.0 10398.4
254.0 10546.8
254.0 10546.8
254.0 10546.8
258.0 10643.6
258.0 10643.6
258.0 10643.6
258.0 10643.6
262.0 10740.4
264.0 10688.8
264.0 10888.8
266.0 10837.2
266.0 10837.2
268.0 10985.6
268.0 10985.6
270.0 10934.0
272.0 11082.4
272.0 11082.4
274.0 11030.8
274.0 11230.8
276.0 11179.2
278.0 11127.6
278.0 11327.6
280.0 11276.0
280.0 11476.0
282.0 11424.4
282.0 11424.4
284.0 11572.8
284.0 11572.8
284.0 11572.8
288.0 11669.6
286.0 11721.2
288.0 11869.6
290.0 11818.0
290.0 11818.0
292.0 11966.4
292.0 11966.4
298.0 11811.6
300.0 11760.0
300.0 11760.0
302.0 11908.4
