
Current (mA), Voltage (mV)
0 0
3.2 -80.96
3.2 -80.96
3.2 -81.26
3.2 -81.26
3.4 -86.42
3.2 -81.26
24.2 795.64
27.4 873.08
30.6 1000.52
33.8 1077.96
36.6 1185.72
39.8 1263.16
43.4 1330.28
80.0 2156.0
50.0 1520.0
54.0 1576.8
58.0 1643.6
62.0 1700.4
64.0 1848.8
68.0 1905.6
70.0 2014.0
74.0 2070.8
78.0 2127.6
82.0 2224.4
86.0 2281.2
88.0 2389.6
92.0 2446.4
96.0 2503.2
100.0 2570.0
104.0 2626.8
106.0 2735.2
110.0 2832.0
114.0 2888.8
118.0 2945.6
120.0 3054.0
124.0 3110.8
128.0 3167.6
130.0 3276.0
136.0 3281.2
138.0 3349.6
142.0 3456.4
218.0 4475.6
152.0 3678.4
156.0 3675.2
160.0 3772.0
164.0 3768.8
168.0 3865.6
172.0 3962.4
176.0 3959.2
176.0 4159.2
180.0 4156.0
184.0 4252.8
188.0 4349.6
192.0 4346.4
196.0 4443.2
202.0 4388.4
206.0 4485.2
210.0 4582.0
214.0 4578.8
214.0 4778.8
222.0 4772.4
226.0 4769.2
226.0 4969.2
230.0 4966.0
234.0 5062.8
238.0 5159.6
242.0 5056.4
246.0 5253.2
250.0 5250.0
254.0 5246.8
258.0 5443.6
262.0 5340.4
266.0 5437.2
266.0 5637.2
274.0 5530.8
278.0 5627.6
282.0 5624.4
282.0 5824.4
286.0 5921.2
290.0 5918.0
298.0 5911.6
298.0 6011.6
302.0 6008.4
306.0 6205.2
310.0 6202.0
314.0 6198.8
318.0 6295.6
322.0 6292.4
326.0 6389.2
330.0 6486.0
330.0 6586.0
334.0 6682.8
338.0 6679.6
342.0 6676.4
346.0 6773.2
350.0 6770.0
354.0 6866.8
358.0 6863.6
362.0 6960.4
366.0 6857.2
366.0 7057.2
370.0 7354.0
374.0 7250.8
378.0 7347.6
382.0 7244.4
386.0 7341.2
390.0 7438.0
394.0 7534.8
394.0 7734.8
402.0 7728.4
410.0 7722.0
410.0 7922.0
410.0 7722.0
418.0 7715.6
426.0 7709.2
426.0 7909.2
426.0 7909.2
442.0 7696.4
434.0 8102.8
450.0 7890.0
450.0 8090.0
450.0 8090.0
458.0 8083.6
458.0 8283.6
458.0 8483.6
466.0 8277.2
474.0 8270.8
474.0 8470.8
474.0 8670.8
474.0 8670.8
482.0 8664.4
482.0 8864.4
490.0 8858.0
498.0 8851.6
860.0 13012.0
520.0 9084.0
500.0 9800.0
520.0 9484.0
520.0 9684.0
520.0 9684.0
540.0 9368.0
540.0 9568.0
540.0 9768.0
540.0 9968.0
540.0 9968.0
540.0 10168.0
540.0 10368.0
560.0 10052.0
560.0 10052.0
580.0 9736.0
580.0 9936.0
560.0 10852.0
560.0 10852.0
580.0 10336.0
580.0 10536.0
580.0 10736.0
600.0 10420.0
600.0 10620.0
620.0 10304.0
620.0 10304.0
620.0 10504.0
620.0 10704.0
620.0 10704.0
620.0 11104.0
620.0 11304.0
620.0 11304.0
620.0 11504.0
620.0 11504.0
620.0 11704.0
620.0 12104.0
660.0 11072.0
640.0 11988.0
640.0 11788.0
660.0 11672.0
660.0 11672.0
680.0 11356.0
660.0 12072.0
660.0 12272.0
660.0 12472.0
680.0 12156.0
680.0 12156.0
680.0 12356.0
700.0 12340.0
680.0 12856.0
700.0 12740.0
680.0 13456.0
700.0 13140.0
700.0 13140.0
700.0 13540.0
700.0 13940.0
720.0 12624.0
720.0 13024.0
740.0 12308.0
740.0 12508.0
720.0 13424.0
760.0 12392.0
740.0 13108.0
760.0 12792.0
