
Current (mA), Voltage (mV)
0 0
3.2 -128.56
3.2 -128.96
3.0 -120.8
3.0 -120.8
3.0 -120.0
3.2 -128.96
3.0 -119.3
3.2 -128.96
3.4 -136.52
3.0 -120.8
3.0 -119.9
3.2 -128.96
3.2 -127.46
3.0 -119.4
3.0 -120.5
3.0 -119.2
3.2 -129.26
3.2 -129.26
3.0 -121.1
3.2 -128.96
3.4 -134.72
3.0 -119.1
3.2 -126.86
3.0 -120.1
3.2 -128.26
2.8 -109.44
3.2 -129.26
3.0 -120.2
3.2 -129.26
11.2 723.04
12.0 720.4
12.8 727.76
13.6 725.12
14.0 738.8
14.4 782.48
15.6 753.52
16.0 777.2
16.8 784.56
17.6 771.92
18.4 779.28
18.8 782.96
19.6 790.32
20.6 789.52
21.4 776.88
22.2 784.24
22.6 807.92
23.4 795.28
24.6 786.32
25.0 790.0
25.8 797.36
26.2 821.04
27.0 808.4
27.8 815.76
28.6 823.12
29.4 810.48
30.2 817.84
31.0 805.2
31.8 812.56
32.2 816.24
33.0 823.6
33.8 830.96
34.6 818.32
35.4 825.68
35.8 849.36
36.6 836.72
37.4 844.08
38.2 831.44
39.0 838.8
39.8 846.16
40.2 849.84
41.0 857.2
45.8 841.36
46.2 845.04
46.6 868.72
47.4 876.08
48.2 863.44
48.6 887.12
49.4 874.48
50.6 865.52
51.0 869.2
51.8 876.56
52.6 873.92
53.4 881.28
54.2 888.64
54.6 892.32
55.4 899.68
56.2 887.04
57.0 894.4
57.8 881.76
58.2 905.44
59.0 892.8
59.8 940.16
60.8 939.36
61.6 906.72
62.0 930.4
63.2 921.44
63.6 945.12
64.4 952.48
64.8 976.16
65.6 943.52
66.4 950.88
67.2 958.24
68.0 965.6
68.4 989.28
70.0 924.0
70.8 931.36
71.6 938.72
71.6 978.72
72.4 986.08
74.0 920.8
74.8 928.16
74.8 968.16
75.6 975.52
76.4 982.88
77.2 950.24
78.0 957.6
79.6 932.32
79.6 972.32
80.4 979.68
81.2 947.04
82.0 954.4
82.8 961.76
83.6 969.12
83.6 1009.12
85.2 943.84
85.2 983.84
86.0 991.2
86.8 998.56
87.6 1005.92
88.4 1013.28
89.2 980.64
90.8 955.36
90.8 995.36
91.6 1002.72
92.4 970.08
92.4 1010.08
94.0 984.8
94.8 992.16
94.8 992.16
96.4 966.88
96.4 1006.88
98.0 981.6
98.8 998.96
98.8 998.96
99.6 1006.32
100.6 1005.52
101.4 1012.88
102.2 1020.24
103.0 1027.6
103.8 994.96
104.6 1002.32
105.4 1009.68
105.4 1049.68
106.2 1057.04
107.0 1024.4
108.6 999.12
108.6 1039.12
109.4 1046.48
110.2 1013.84
111.0 1021.2
111.8 1028.56
112.6 1035.92
