
Current (mA), Voltage (mV)
0 0
3.2 -65.76
3.2 -79.46
3.2 -79.86
10.6 -272.18
10.8 364.36
11.6 412.72
12.8 449.76
14.0 488.8
15.2 527.84
16.8 566.56
18.0 605.6
19.2 634.64
20.6 678.52
21.8 717.56
23.0 746.6
24.2 795.64
25.8 814.36
26.6 853.72
28.2 882.44
29.4 951.48
30.6 980.52
31.8 1029.56
33.0 1058.6
34.2 1107.64
35.4 1136.68
36.6 1185.72
38.2 1204.44
39.0 1243.8
40.6 1282.52
42.6 1290.92
44.2 1309.64
75.6 1989.52
49.0 1465.8
50.6 1504.52
51.4 1563.88
53.8 1541.96
54.6 1611.32
56.2 1610.04
57.0 1669.4
58.6 1708.12
60.4 1741.68
62.0 1740.4
63.6 1779.12
64.4 1838.48
66.0 1837.2
66.8 1896.56
68.4 1935.28
70.0 1934.0
70.8 1993.36
72.4 2032.08
74.0 2030.8
75.6 2069.52
76.4 2128.88
78.0 2127.6
78.8 2186.96
79.6 2246.32
82.0 2224.4
86.0 2201.2
86.0 2281.2
86.0 2321.2
88.0 2349.6
90.0 2378.0
90.0 2418.0
92.0 2446.4
94.0 2474.8
94.0 2514.8
98.0 2501.6
100.0 2490.0
100.0 2570.0
102.0 2598.4
102.0 2638.4
102.0 2718.4
104.0 2746.8
108.0 2683.6
108.0 2763.6
110.0 2792.0
110.0 2832.0
114.0 2808.8
114.0 2848.8
116.0 2877.2
116.0 2957.2
118.0 2945.6
118.0 3025.6
122.0 2962.4
124.0 2990.8
124.0 3070.8
126.0 3059.2
128.0 3087.6
128.0 3127.6
128.0 3207.6
130.0 3236.0
132.0 3224.4
136.0 3201.2
136.0 3281.2
136.0 3321.2
138.0 3309.6
138.0 3389.6
140.0 3428.0
144.0 3364.8
144.0 3444.8
148.0 3581.6
152.0 3578.4
152.0 3578.4
152.0 3678.4
156.0 3575.2
156.0 3675.2
156.0 3775.2
160.0 3672.0
160.0 3772.0
160.0 3872.0
164.0 3768.8
164.0 3868.8
168.0 3765.6
168.0 3865.6
168.0 3965.6
172.0 3962.4
172.0 3962.4
172.0 3962.4
176.0 3959.2
176.0 4059.2
180.0 4056.0
180.0 4156.0
180.0 4156.0
180.0 4156.0
184.0 4152.8
184.0 4252.8
188.0 4249.6
188.0 4249.6
188.0 4349.6
192.0 4246.4
192.0 4346.4
192.0 4346.4
196.0 4343.2
196.0 4443.2
202.0 4388.4
202.0 4388.4
202.0 4388.4
206.0 4385.2
206.0 4485.2
206.0 4585.2
210.0 4582.0
210.0 4582.0
214.0 4578.8
214.0 4578.8
218.0 4575.6
218.0 4575.6
218.0 4675.6
222.0 4672.4
222.0 4772.4
222.0 4772.4
226.0 4669.2
226.0 4769.2
226.0 4869.2
230.0 4866.0
230.0 4966.0
234.0 4862.8
234.0 4862.8
234.0 4962.8
238.0 4959.6
238.0 5059.6
238.0 5159.6
242.0 5056.4
242.0 5056.4
242.0 5156.4
246.0 5153.2
246.0 5253.2
250.0 5150.0
250.0 5250.0
250.0 5250.0
254.0 5246.8
254.0 5246.8
258.0 5243.6
258.0 5343.6
262.0 5340.4
262.0 5340.4
262.0 5340.4
262.0 5440.4
266.0 5337.2
266.0 5437.2
270.0 5434.0
270.0 5534.0
270.0 5534.0
274.0 5530.8
278.0 5527.6
274.0 5630.8
278.0 5627.6
278.0 5727.6
282.0 5624.4
282.0 5624.4
282.0 5724.4
286.0 5721.2
286.0 5821.2
290.0 5818.0
290.0 5818.0
290.0 5818.0
294.0 5814.8
294.0 5814.8
298.0 5811.6
298.0 5911.6
302.0 5908.4
298.0 6011.6
302.0 5908.4
302.0 6008.4
302.0 6108.4
306.0 6105.2
306.0 6105.2
306.0 6205.2
310.0 6202.0
314.0 6098.8
314.0 6098.8
314.0 6198.8
314.0 6298.8
314.0 6398.8
318.0 6295.6
318.0 6395.6
318.0 6395.6
322.0 6292.4
322.0 6392.4
326.0 6389.2
326.0 6489.2
330.0 6386.0
330.0 6486.0
330.0 6486.0
334.0 6482.8
338.0 6379.6
334.0 6682.8
338.0 6579.6
338.0 6679.6
342.0 6576.4
338.0 6679.6
342.0 6676.4
346.0 6673.2
338.0 6879.6
346.0 6773.2
346.0 6873.2
350.0 6770.0
350.0 6770.0
358.0 6663.6
354.0 6866.8
358.0 6763.6
358.0 6863.6
358.0 6963.6
362.0 6760.4
362.0 6960.4
362.0 6960.4
366.0 7057.2
366.0 7057.2
370.0 6954.0
370.0 7154.0
374.0 6850.8
374.0 7050.8
374.0 7250.8
374.0 7250.8
378.0 7147.6
382.0 7044.4
378.0 7147.6
382.0 7244.4
382.0 7244.4
382.0 7244.4
386.0 7341.2
386.0 7341.2
