
Current (mA), Voltage (mV)
0 0
3.2 -80.76
3.2 -80.56
3.2 -80.96
3.2 -80.96
3.2 -77.16
3.2 -75.16
3.2 -79.26
6.2 -158.36
7.0 -179.0
3.2 -80.96
3.0 -73.0
3.2 -80.96
3.4 -86.12
3.2 -80.96
3.2 -79.86
3.2 -80.96
3.2 -79.06
3.2 -81.26
11.6 1750.72
12.4 1810.08
13.2 1869.44
14.0 1928.8
14.8 1988.16
16.0 2037.2
16.4 2106.88
17.2 2166.24
18.4 2215.28
18.8 2284.96
20.2 2328.84
21.0 2388.2
21.8 2427.56
27.0 2683.4
25.8 2674.36
27.0 2723.4
27.8 2782.76
29.0 2831.8
29.8 2871.16
31.0 2920.2
31.8 2979.56
32.6 3018.92
34.2 3057.64
34.6 3127.32
35.8 3176.36
37.0 3225.4
37.8 3244.76
39.0 3293.8
39.8 3353.16
41.8 3381.56
42.6 3440.92
44.2 3479.64
45.0 3539.0
45.8 3558.36
46.6 3617.72
48.2 3656.44
49.0 3715.8
50.6 3764.52
52.2 3763.24
52.2 3843.24
53.8 3881.96
55.4 3920.68
57.0 3959.4
57.0 4039.4
59.4 4017.48
60.4 4071.68
62.0 4110.4
62.0 4190.4
63.6 4189.12
65.2 4227.84
66.0 4287.2
66.8 4346.56
69.2 4324.64
69.2 4404.64
70.8 4443.36
72.4 4482.08
73.2 4541.44
74.0 4560.8
75.6 4599.52
76.4 4658.88
78.0 4657.6
79.6 4696.32
80.4 4755.68
81.2 4815.04
84.0 4782.8
86.0 4821.2
86.0 4901.2
86.0 4941.2
88.0 4969.6
92.0 4906.4
90.0 5038.0
92.0 5066.4
94.0 5054.8
94.0 5134.8
96.0 5163.2
98.0 5151.6
100.0 5180.0
100.0 5260.0
102.0 5248.4
102.0 5328.4
102.0 5368.4
104.0 5396.8
116.0 5207.2
120.0 5204.0
120.0 5304.0
120.0 5304.0
120.0 5404.0
124.0 5300.8
124.0 5400.8
124.0 5500.8
128.0 5497.6
128.0 5497.6
128.0 5597.6
132.0 5594.4
132.0 5694.4
136.0 5591.2
136.0 5691.2
136.0 5691.2
136.0 5791.2
140.0 5788.0
140.0 5888.0
140.0 5888.0
144.0 5884.8
144.0 5884.8
144.0 5984.8
144.0 6084.8
148.0 6081.6
148.0 6181.6
148.0 6181.6
152.0 6178.4
152.0 6178.4
156.0 6175.2
156.0 6275.2
156.0 6375.2
160.0 6372.0
160.0 6372.0
160.0 6372.0
160.0 6472.0
160.0 6572.0
164.0 6568.8
164.0 6668.8
168.0 6565.6
168.0 6665.6
168.0 6765.6
172.0 6662.4
172.0 6762.4
172.0 6862.4
172.0 6862.4
176.0 6859.2
176.0 6959.2
176.0 6959.2
180.0 7056.0
180.0 7056.0
180.0 7056.0
180.0 7156.0
184.0 7152.8
184.0 7252.8
184.0 7352.8
188.0 7249.6
188.0 7349.6
188.0 7349.6
192.0 7346.4
192.0 7446.4
192.0 7546.4
196.0 7443.2
196.0 7543.2
196.0 7343.2
210.0 7082.0
214.0 6978.8
214.0 6978.8
214.0 7078.8
218.0 7075.6
218.0 7175.6
218.0 7275.6
222.0 7172.4
222.0 7272.4
222.0 7372.4
222.0 7372.4
222.0 7572.4
222.0 7572.4
230.0 7366.0
234.0 7262.8
230.0 7466.0
234.0 7462.8
234.0 7562.8
238.0 7459.6
238.0 7559.6
238.0 7559.6
242.0 7456.4
242.0 7556.4
242.0 7656.4
246.0 7653.2
254.0 7346.8
254.0 7446.8
254.0 7546.8
254.0 7546.8
262.0 7440.4
258.0 7543.6
262.0 7540.4
266.0 7537.2
262.0 7740.4
262.0 7740.4
266.0 7737.2
266.0 7737.2
270.0 7734.0
270.0 7834.0
274.0 7830.8
274.0 7830.8
274.0 7930.8
274.0 7930.8
274.0 8030.8
278.0 8027.6
282.0 8024.4
278.0 8127.6
294.0 7614.8
294.0 7514.8
294.0 7614.8
298.0 7611.6
298.0 7611.6
298.0 7711.6
302.0 7608.4
298.0 8011.6
298.0 8111.6
298.0 8111.6
298.0 8211.6
298.0 8311.6
298.0 8411.6
298.0 8511.6
302.0 8408.4
302.0 8508.4
306.0 8405.2
306.0 8405.2
306.0 8405.2
310.0 8502.0
310.0 8502.0
310.0 8502.0
318.0 8495.6
322.0 8192.4
326.0 8089.2
322.0 8392.4
326.0 8489.2
326.0 8489.2
330.0 8386.0
330.0 8386.0
334.0 8282.8
330.0 8586.0
334.0 8482.8
338.0 8379.6
334.0 8682.8
338.0 8579.6
338.0 8579.6
342.0 8876.4
342.0 8676.4
342.0 8676.4
342.0 8876.4
346.0 8773.2
350.0 8670.0
350.0 8870.0
350.0 8870.0
354.0 8966.8
354.0 8966.8
354.0 8966.8
354.0 8966.8
