
Current (mA), Voltage (mV)
0 0
3.4 -86.12
3.2 -80.96
8.4 -212.72
3.2 -79.56
3.2 -80.96
3.2 -80.96
3.2 -79.86
3.2 -80.96
3.2 -80.96
3.2 -63.96
3.2 -66.56
3.2 -80.96
3.2 -80.76
3.4 -84.72
3.2 -80.96
3.2 -80.96
3.2 -80.96
3.2 -80.96
3.2 -79.66
3.2 -76.96
3.2 -80.96
3.2 -80.96
3.2 -79.06
3.2 -76.16
3.2 -69.26
3.2 -64.86
29.8 1641.16
31.4 1659.88
32.2 1699.24
33.4 1748.28
34.6 1797.32
39.4 1893.48
40.2 1952.84
41.0 2002.2
41.8 2061.56
44.2 2079.64
45.0 2119.0
45.8 2178.36
47.4 2197.08
48.2 2256.44
49.8 2275.16
50.6 2334.52
52.2 2353.24
53.0 2412.6
54.6 2431.32
55.4 2470.68
57.0 2509.4
58.6 2528.12
59.4 2567.48
61.2 2601.04
62.0 2660.4
63.6 2699.12
64.4 2718.48
66.0 2757.2
66.8 2816.56
68.4 2855.28
70.0 2854.0
70.8 2913.36
71.6 2972.72
72.4 3032.08
74.8 3050.16
75.6 3079.52
76.4 3138.88
78.0 3177.6
78.8 3236.96
80.4 3235.68
82.0 3274.4
84.0 3302.8
86.0 3291.2
86.0 3371.2
88.0 3399.6
88.0 3439.6
90.0 3468.0
92.0 3496.4
92.0 3576.4
94.0 3564.8
94.0 3644.8
96.0 3673.2
98.0 3661.6
98.0 3741.6
100.0 3770.0
102.0 3798.4
104.0 3786.8
104.0 3866.8
106.0 3895.2
106.0 3935.2
108.0 3963.6
110.0 3992.0
112.0 3980.4
112.0 4060.4
112.0 4100.4
116.0 4087.2
118.0 4115.6
118.0 4155.6
118.0 4235.6
120.0 4264.0
120.0 4304.0
124.0 4280.8
126.0 4269.2
126.0 4349.2
128.0 4597.6
132.0 4594.4
132.0 4594.4
132.0 4694.4
136.0 4591.2
136.0 4691.2
136.0 4791.2
140.0 4788.0
140.0 4788.0
140.0 4888.0
144.0 4784.8
144.0 4884.8
144.0 4984.8
148.0 4981.6
148.0 4981.6
148.0 5081.6
152.0 4978.4
152.0 5078.4
152.0 5178.4
156.0 5175.2
156.0 5175.2
156.0 5275.2
160.0 5172.0
160.0 5272.0
164.0 5268.8
164.0 5268.8
168.0 5265.6
168.0 5265.6
168.0 5365.6
172.0 5362.4
172.0 5362.4
172.0 5462.4
176.0 5459.2
176.0 5559.2
180.0 5456.0
180.0 5556.0
180.0 5556.0
180.0 5656.0
184.0 5652.8
184.0 5752.8
184.0 5752.8
188.0 5649.6
188.0 5749.6
192.0 5746.4
192.0 5846.4
192.0 5946.4
196.0 5843.2
196.0 5843.2
196.0 5943.2
202.0 5888.4
202.0 5988.4
202.0 6088.4
206.0 5985.2
206.0 5985.2
210.0 5982.0
210.0 6082.0
210.0 6182.0
214.0 6078.8
214.0 6178.8
214.0 6178.8
218.0 6175.6
218.0 6275.6
218.0 6275.6
222.0 6272.4
222.0 6372.4
222.0 6372.4
226.0 6369.2
226.0 6369.2
230.0 6366.0
230.0 6466.0
230.0 6566.0
230.0 6566.0
234.0 6562.8
234.0 6562.8
234.0 6662.8
238.0 6659.6
238.0 6759.6
242.0 6656.4
242.0 6656.4
242.0 6756.4
242.0 6856.4
246.0 6853.2
246.0 6953.2
246.0 6953.2
250.0 6850.0
254.0 6846.8
254.0 6946.8
254.0 6946.8
254.0 7046.8
258.0 7043.6
258.0 7043.6
258.0 7143.6
266.0 6937.2
262.0 7140.4
262.0 7240.4
266.0 7237.2
266.0 7337.2
270.0 7234.0
270.0 7234.0
270.0 7334.0
274.0 7330.8
274.0 7430.8
278.0 7427.6
278.0 7427.6
278.0 7427.6
278.0 7527.6
282.0 7524.4
282.0 7624.4
282.0 7624.4
286.0 7621.2
286.0 7621.2
290.0 7518.0
294.0 7614.8
290.0 7718.0
294.0 7714.8
294.0 7814.8
294.0 7814.8
298.0 7711.6
298.0 7811.6
298.0 7811.6
302.0 7908.4
302.0 7908.4
302.0 8008.4
306.0 7905.2
306.0 7905.2
306.0 8005.2
310.0 8002.0
314.0 7998.8
314.0 8098.8
314.0 8098.8
310.0 8502.0
314.0 8198.8
314.0 8598.8
314.0 8398.8
318.0 8495.6
318.0 8695.6
330.0 7986.0
334.0 7882.8
334.0 7882.8
334.0 8282.8
338.0 7979.6
334.0 8082.8
338.0 8179.6
334.0 8282.8
342.0 8276.4
346.0 7973.2
346.0 8373.2
346.0 8373.2
350.0 8270.0
350.0 8470.0
350.0 8270.0
350.0 8470.0
354.0 8366.8
358.0 8463.6
358.0 8263.6
358.0 8463.6
358.0 8463.6
358.0 8663.6
362.0 8360.4
362.0 8560.4
362.0 8560.4
