
Current (mA), Voltage (mV)
0 0
3.2 -80.96
3.2 -79.86
3.2 -80.96
4.2 -106.76
3.2 -63.56
10.4 561.68
11.2 621.04
12.4 670.08
10.6 806.52
10.4 891.68
11.2 941.04
12.0 1000.4
12.8 1059.76
13.6 1119.12
14.4 1168.48
15.6 1217.52
16.4 1306.88
17.6 1355.92
18.4 1415.28
19.6 1444.32
20.6 1498.52
21.4 1557.88
22.6 1606.92
23.4 1666.28
24.6 1695.32
25.4 1754.68
26.6 1803.72
27.4 1863.08
28.2 1922.44
29.4 1951.48
30.6 2000.52
36.2 2206.04
34.6 2227.32
35.8 2276.36
36.6 2335.72
38.2 2354.44
39.0 2413.8
39.8 2473.16
41.8 2481.56
42.6 2540.92
44.2 2559.64
45.8 2598.36
46.6 2637.72
47.4 2697.08
49.0 2715.8
49.0 2795.8
50.6 2834.52
52.2 2873.24
53.0 2932.6
53.8 2951.96
55.4 2990.68
56.2 3050.04
57.8 3088.76
58.6 3108.12
60.4 3141.68
62.0 3180.4
62.0 3260.4
63.6 3299.12
64.4 3318.48
66.8 3346.56
66.8 3426.56
68.4 3465.28
70.0 3464.0
70.8 3523.36
72.4 3562.08
73.2 3621.44
74.0 3640.8
75.6 3679.52
76.4 3738.88
78.0 3777.6
79.6 3776.32
80.4 3835.68
81.2 3895.04
86.0 3811.2
86.0 3891.2
86.0 3971.2
86.0 4051.2
88.0 4039.6
90.0 4068.0
92.0 4096.4
92.0 4136.4
94.0 4164.8
94.0 4244.8
98.0 4221.6
98.0 4261.6
100.0 4290.0
100.0 4370.0
102.0 4358.4
102.0 4448.4
104.0 4436.8
104.0 4516.8
106.0 4545.2
108.0 4533.6
110.0 4562.0
110.0 4602.0
112.0 4630.4
112.0 4710.4
114.0 4738.8
116.0 4727.2
118.0 4755.6
120.0 5004.0
124.0 5000.8
124.0 5000.8
124.0 5100.8
128.0 5097.6
128.0 5097.6
128.0 5197.6
132.0 5194.4
132.0 5294.4
132.0 5394.4
136.0 5291.2
136.0 5291.2
136.0 5391.2
140.0 5388.0
140.0 5488.0
140.0 5488.0
144.0 5484.8
144.0 5484.8
144.0 5584.8
148.0 5581.6
148.0 5681.6
148.0 5681.6
152.0 5678.4
152.0 5678.4
152.0 5778.4
156.0 5775.2
156.0 5775.2
156.0 5875.2
160.0 5872.0
160.0 5972.0
160.0 5972.0
160.0 6072.0
164.0 6068.8
164.0 6168.8
168.0 6065.6
168.0 6165.6
168.0 6165.6
172.0 6062.4
172.0 6162.4
172.0 6362.4
176.0 6259.2
176.0 6359.2
180.0 6256.0
180.0 6356.0
180.0 6356.0
180.0 6456.0
184.0 6452.8
184.0 6552.8
180.0 6756.0
184.0 6752.8
184.0 6752.8
188.0 6749.6
188.0 6849.6
188.0 6849.6
192.0 6846.4
192.0 6946.4
192.0 6946.4
202.0 6688.4
202.0 6788.4
206.0 6785.2
206.0 6785.2
206.0 6885.2
210.0 6782.0
210.0 6882.0
210.0 6982.0
210.0 7082.0
214.0 6978.8
214.0 6978.8
218.0 6975.6
218.0 7075.6
222.0 7072.4
222.0 7072.4
222.0 7172.4
222.0 7172.4
226.0 7169.2
226.0 7269.2
226.0 7269.2
230.0 7366.0
230.0 7366.0
230.0 7366.0
234.0 7262.8
238.0 7259.6
238.0 7359.6
238.0 7459.6
242.0 7456.4
242.0 7456.4
242.0 7456.4
246.0 7453.2
246.0 7453.2
246.0 7553.2
250.0 7550.0
250.0 7650.0
250.0 7750.0
254.0 7646.8
254.0 7746.8
258.0 7743.6
258.0 7743.6
262.0 7740.4
262.0 7840.4
262.0 7840.4
262.0 7840.4
266.0 7837.2
266.0 7837.2
266.0 7937.2
270.0 7934.0
270.0 8034.0
270.0 8034.0
278.0 7827.6
274.0 8030.8
278.0 8027.6
278.0 8127.6
278.0 8127.6
282.0 8124.4
282.0 8124.4
282.0 8224.4
286.0 8221.2
286.0 8221.2
286.0 8321.2
286.0 8321.2
290.0 8318.0
294.0 8214.8
294.0 8314.8
294.0 8414.8
294.0 8414.8
298.0 8411.6
298.0 8511.6
302.0 8508.4
302.0 8508.4
302.0 8708.4
302.0 8708.4
306.0 8605.2
306.0 8605.2
306.0 8805.2
306.0 9005.2
310.0 8902.0
318.0 8495.6
322.0 8392.4
322.0 8592.4
322.0 8592.4
326.0 8689.2
326.0 8689.2
326.0 8489.2
330.0 8786.0
330.0 8786.0
330.0 8786.0
334.0 8882.8
334.0 8682.8
334.0 8882.8
338.0 8979.6
338.0 8779.6
338.0 8779.6
342.0 8676.4
342.0 9076.4
346.0 8973.2
346.0 8973.2
350.0 8870.0
350.0 8870.0
350.0 8870.0
350.0 9070.0
350.0 9070.0
350.0 9470.0
