
Current (mA), Voltage (mV)
0 0
3.2 -53.36
3.2 -80.96
3.2 -79.46
3.2 -78.56
3.2 -79.06
7.6 -187.08
3.2 -62.46
8.8 852.96
9.2 932.64
10.0 992.0
10.0 1072.0
10.8 1141.36
12.0 1190.4
12.4 1260.08
9.2 1452.64
10.0 1532.0
10.8 1591.36
11.2 1661.04
11.6 1730.72
12.8 1799.76
13.2 1869.44
13.6 1939.12
14.4 1998.48
15.2 2077.84
15.6 2147.52
16.4 2206.88
17.2 2266.24
17.6 2335.92
18.4 2395.28
19.2 2474.64
20.2 2538.84
37.8 3844.76
23.0 2786.6
23.8 2845.96
24.6 2905.32
25.4 3004.68
26.2 3064.04
27.4 3113.08
27.8 3182.76
28.6 3242.12
29.4 3301.48
30.2 3360.84
31.0 3420.2
31.8 3479.56
32.2 3549.24
33.0 3608.6
33.8 3667.96
34.6 3727.32
35.4 3786.68
36.2 3846.04
36.6 3915.72
37.8 3964.76
38.2 4044.44
39.4 4093.48
39.8 4203.16
40.2 4272.84
41.0 4332.2
54.6 4061.32
42.6 4450.92
44.2 4489.64
44.2 4569.64
45.8 4608.36
46.6 4667.72
48.2 4706.44
49.0 4765.8
49.0 4845.8
49.8 4905.16
49.8 5025.16
49.8 5105.16
51.4 5143.88
51.4 5223.88
52.2 5283.24
53.0 5342.6
54.6 5381.32
55.4 5480.68
55.4 5480.68
57.0 5519.4
57.8 5628.76
57.8 5708.76
58.6 5768.12
59.4 5827.48
60.4 5881.68
64.4 5778.48
66.0 5777.2
66.8 5836.56
66.8 5916.56
67.6 5975.92
69.2 6014.64
70.0 6074.0
70.8 6093.36
71.6 6152.72
71.6 6232.72
72.4 6332.08
74.8 6370.16
74.8 6470.16
75.6 6449.52
77.2 6508.24
78.0 6587.6
78.0 6687.6
79.6 6746.32
128.0 7997.6
90.0 6778.0
90.0 6778.0
92.0 6826.4
94.0 6774.8
94.0 6874.8
94.0 6974.8
96.0 7023.2
100.0 7020.0
98.0 7071.6
100.0 7120.0
100.0 7220.0
102.0 7268.4
102.0 7368.4
104.0 7416.8
102.0 7468.4
104.0 7516.8
106.0 7565.2
108.0 7513.6
108.0 7613.6
110.0 7662.0
110.0 7762.0
110.0 7762.0
112.0 7810.4
112.0 7910.4
116.0 7907.2
116.0 7907.2
118.0 7855.6
118.0 8055.6
122.0 7852.4
126.0 7849.2
128.0 7897.6
130.0 7846.0
130.0 7946.0
130.0 7946.0
132.0 7994.4
134.0 8042.8
136.0 7991.2
136.0 8091.2
136.0 8191.2
138.0 8139.6
138.0 8239.6
140.0 8288.0
142.0 8336.4
144.0 8384.8
146.0 8333.2
144.0 8384.8
148.0 8381.6
148.0 8481.6
150.0 8530.0
152.0 8578.4
152.0 8578.4
152.0 8678.4
152.0 8778.4
154.0 8826.8
154.0 8926.8
156.0 8875.2
156.0 8975.2
158.0 9023.6
160.0 8972.0
160.0 9172.0
160.0 9172.0
160.0 9172.0
164.0 9168.8
164.0 9168.8
164.0 9368.8
168.0 9265.6
168.0 9365.6
168.0 9365.6
172.0 9362.4
172.0 9462.4
176.0 9359.2
176.0 9459.2
180.0 9456.0
180.0 9556.0
180.0 9556.0
180.0 9556.0
184.0 9652.8
184.0 9652.8
184.0 9752.8
188.0 9749.6
188.0 9749.6
188.0 9849.6
192.0 9746.4
192.0 9846.4
192.0 9946.4
196.0 9943.2
196.0 9943.2
196.0 10043.2
196.0 10143.2
202.0 10088.4
196.0 10243.2
202.0 10188.4
214.0 9678.8
214.0 9778.8
218.0 9775.6
218.0 9775.6
218.0 9775.6
222.0 9772.4
222.0 9872.4
222.0 9872.4
222.0 10072.4
222.0 10072.4
222.0 10172.4
226.0 10069.2
230.0 10066.0
230.0 10066.0
230.0 10266.0
230.0 10266.0
234.0 10462.8
234.0 10462.8
234.0 10462.8
234.0 10662.8
238.0 10359.6
238.0 10359.6
238.0 10759.6
238.0 10559.6
242.0 10656.4
246.0 10553.2
242.0 10656.4
246.0 10953.2
246.0 10953.2
250.0 10850.0
250.0 10650.0
254.0 10746.8
254.0 10746.8
254.0 10746.8
262.0 10540.4
262.0 10540.4
266.0 10637.2
270.0 10534.0
266.0 10637.2
274.0 10430.8
278.0 10527.6
274.0 10630.8
274.0 10630.8
274.0 10830.8
270.0 11134.0
282.0 10624.4
282.0 10624.4
282.0 10624.4
286.0 10921.2
286.0 10721.2
286.0 11121.2
290.0 11018.0
290.0 10818.0
290.0 11018.0
290.0 11018.0
294.0 10914.8
294.0 11114.8
294.0 11114.8
298.0 11211.6
298.0 11411.6
298.0 11411.6
298.0 11411.6
302.0 11308.4
302.0 11508.4
306.0 11405.2
306.0 11405.2
306.0 11405.2
310.0 11502.0
